File: data_bases/ref/ring.dat
# Ring Spectrum
# Source: Created using QDOAS
#         Danckaert, T., Fayt, C., and Van Roozendael, M.: QDOAS Software user manual, Tech. rep., Royal Belgian Institute for Space Aeronomy, http://uv-vis.aeronomie.be/software/QDOAS/, 2017.
#         From SAO 2010 Solar Atlas (Chance and Kurucz, 2010)
# Wavelength (nm),       Intensity Correction
302 2.68204
302.02 1.67875
302.04 1.22202
302.06 1.33458
302.08 1.89993
302.1 2.58013
302.12 3.44369
302.14 5.84041
302.16 7.29432
302.18 6.32503
302.2 5.3671
302.22 3.55577
302.24 2.40255
302.26 1.5848
302.28 1.18237
302.3 1.04239
302.32 0.963484
302.34 0.882798
302.36 0.81606
302.38 0.721318
302.4 0.65602
302.42 0.622346
302.44 0.650411
302.46 0.812578
302.48 1.30215
302.5 1.61215
302.52 1.13502
302.54 0.772077
302.56 0.733704
302.58 0.83461
302.6 0.896383
302.62 1.07137
302.64 1.53309
302.66 2.68849
302.68 2.64434
302.7 1.7074
302.72 1.67165
302.74 1.62424
302.76 1.03403
302.78 0.763662
302.8 0.615908
302.82 0.532723
302.84 0.540419
302.86 0.601421
302.88 0.699469
302.9 0.741988
302.92 0.63711
302.94 0.626361
302.96 0.681503
302.98 0.821236
303 1.15229
303.02 1.08728
303.04 0.825403
303.06 0.844872
303.08 0.979692
303.1 1.21104
303.12 0.934316
303.14 0.728423
303.16 0.783449
303.18 0.98926
303.2 1.43355
303.22 1.89571
303.24 2.03702
303.26 1.71293
303.28 0.951213
303.3 0.640356
303.32 0.590412
303.34 0.585143
303.36 0.64374
303.38 0.814375
303.4 0.790946
303.42 0.766175
303.44 0.803779
303.46 0.769103
303.48 0.777541
303.5 0.824264
303.52 0.965263
303.54 1.13967
303.56 0.871011
303.58 0.699553
303.6 0.684266
303.62 0.719779
303.64 0.727934
303.66 0.791098
303.68 0.78867
303.7 0.771758
303.72 0.793007
303.74 0.842827
303.76 0.968492
303.78 1.31885
303.8 2.3765
303.82 4.313
303.84 4.47595
303.86 3.71818
303.88 3.02351
303.9 1.77854
303.92 1.15636
303.94 0.938005
303.96 0.944085
303.98 0.989523
304 0.956563
304.02 0.890321
304.04 0.98458
304.06 1.0458
304.08 0.793162
304.1 0.758706
304.12 1.18137
304.14 1.67375
304.16 1.52842
304.18 1.43085
304.2 0.990897
304.22 0.891792
304.24 1.24251
304.26 2.25847
304.28 2.44202
304.3 1.51624
304.32 1.16516
304.34 1.52165
304.36 1.77707
304.38 1.02688
304.4 0.744477
304.42 0.725447
304.44 0.746968
304.46 0.79169
304.48 1.01111
304.5 1.00356
304.52 0.757878
304.54 0.725232
304.56 0.822626
304.58 1.05179
304.6 0.934253
304.62 0.694993
304.64 0.793234
304.66 0.882002
304.68 0.743604
304.7 0.647911
304.72 0.644198
304.74 0.78836
304.76 1.1613
304.78 1.56529
304.8 1.8374
304.82 2.27019
304.84 3.82988
304.86 4.14009
304.88 2.31587
304.9 1.48564
304.92 1.25386
304.94 1.1354
304.96 1.09017
304.98 1.05979
305 0.856908
305.02 0.824138
305.04 0.754168
305.06 0.660465
305.08 0.753697
305.1 0.924003
305.12 0.922589
305.14 1.12346
305.16 1.98115
305.18 1.97288
305.2 1.01059
305.22 0.723419
305.24 0.628581
305.26 0.550076
305.28 0.531488
305.3 0.583172
305.32 0.641965
305.34 0.635056
305.36 0.601369
305.38 0.672933
305.4 0.783579
305.42 0.883347
305.44 1.0466
305.46 1.20448
305.48 1.17015
305.5 1.16832
305.52 1.48568
305.54 1.2193
305.56 0.986302
305.58 0.86296
305.6 0.98342
305.62 1.15659
305.64 0.915142
305.66 0.813566
305.68 0.732
305.7 0.798236
305.72 0.89004
305.74 0.916362
305.76 1.14848
305.78 1.27436
305.8 1.65139
305.82 3.12114
305.84 5.10895
305.86 3.63553
305.88 2.3084
305.9 1.65226
305.92 1.38745
305.94 1.52725
305.96 1.89924
305.98 3.00359
306 4.20626
306.02 2.82016
306.04 1.79248
306.06 1.28767
306.08 1.01679
306.1 0.915193
306.12 0.973661
306.14 1.19131
306.16 1.09068
306.18 0.878487
306.2 0.740072
306.22 0.631277
306.24 0.636672
306.26 0.731023
306.28 0.812753
306.3 0.922476
306.32 0.824424
306.34 0.649707
306.36 0.687893
306.38 0.735412
306.4 0.785591
306.42 0.913299
306.44 1.01782
306.46 1.13101
306.48 1.25084
306.5 1.30797
306.52 1.24484
306.54 1.20979
306.56 1.30384
306.58 1.23244
306.6 0.998565
306.62 0.791708
306.64 0.696311
306.66 0.690817
306.68 0.909896
306.7 1.64615
306.72 2.53371
306.74 1.56381
306.76 1.06031
306.78 1.3193
306.8 2.54341
306.82 2.70779
306.84 1.64728
306.86 1.33765
306.88 1.19247
306.9 1.16104
306.92 1.08077
306.94 1.03407
306.96 1.02873
306.98 0.783824
307 0.759562
307.02 0.9017
307.04 0.833867
307.06 0.690523
307.08 0.697628
307.1 0.823034
307.12 1.01348
307.14 0.912602
307.16 0.747186
307.18 0.726023
307.2 0.879376
307.22 0.896274
307.24 0.759808
307.26 0.743536
307.28 0.949063
307.3 1.70824
307.32 1.70286
307.34 1.021
307.36 0.784065
307.38 1.03647
307.4 1.18495
307.42 0.775094
307.44 0.649556
307.46 0.721025
307.48 0.951379
307.5 1.19098
307.52 1.02456
307.54 0.825492
307.56 0.73048
307.58 0.802799
307.6 1.33168
307.62 2.34169
307.64 2.56631
307.66 2.77712
307.68 1.64499
307.7 0.934515
307.72 0.742086
307.74 0.667109
307.76 0.73079
307.78 0.878927
307.8 0.929794
307.82 0.797641
307.84 0.846051
307.86 1.056
307.88 1.03876
307.9 1.07125
307.92 1.37422
307.94 2.1027
307.96 1.6397
307.98 0.891385
308 0.677947
308.02 0.695658
308.04 0.732391
308.06 0.743463
308.08 0.891402
308.1 1.01407
308.12 0.859309
308.14 0.844003
308.16 1.00535
308.18 0.928181
308.2 0.841131
308.22 1.04517
308.24 1.38565
308.26 1.64172
308.28 1.66638
308.3 2.00569
308.32 1.42578
308.34 1.03914
308.36 0.902394
308.38 0.883887
308.4 1.15868
308.42 1.36571
308.44 1.51816
308.46 1.88564
308.48 1.23462
308.5 0.749777
308.52 0.61977
308.54 0.590197
308.56 0.591449
308.58 0.694553
308.6 0.844412
308.62 0.889099
308.64 0.725851
308.66 0.643161
308.68 0.609664
308.7 0.668303
308.72 0.812214
308.74 1.03478
308.76 1.10968
308.78 1.0261
308.8 0.925099
308.82 0.919035
308.84 0.972618
308.86 1.05572
308.88 1.57716
308.9 1.82718
308.92 1.11875
308.94 0.820329
308.96 0.831508
308.98 0.785064
309 0.693218
309.02 0.770417
309.04 1.17288
309.06 1.50121
309.08 1.05918
309.1 0.874275
309.12 1.02725
309.14 0.915838
309.16 0.863433
309.18 1.25207
309.2 1.98611
309.22 1.95591
309.24 1.91375
309.26 1.42686
309.28 0.966713
309.3 0.825208
309.32 0.968124
309.34 1.71464
309.36 3.7932
309.38 6.0486
309.4 3.70032
309.42 1.93878
309.44 1.36362
309.46 1.2731
309.48 1.23579
309.5 1.15305
309.52 1.07933
309.54 0.827208
309.56 0.749497
309.58 0.756151
309.6 0.773094
309.62 0.811681
309.64 0.661781
309.66 0.637515
309.68 0.79459
309.7 1.1423
309.72 1.374
309.74 1.46998
309.76 1.94162
309.78 2.97074
309.8 2.40383
309.82 1.36089
309.84 1.01406
309.86 0.997241
309.88 1.04633
309.9 1.01526
309.92 0.792919
309.94 0.78528
309.96 0.88097
309.98 0.933277
310 1.10797
310.02 1.16299
310.04 1.28284
310.06 1.6587
310.08 2.75739
310.1 3.46983
310.12 3.06011
310.14 2.76175
310.16 2.7856
310.18 2.00067
310.2 1.39982
310.22 1.53555
310.24 2.43099
310.26 2.95574
310.28 2.29818
310.3 1.86549
310.32 1.60971
310.34 1.09027
310.36 0.930843
310.38 0.862835
310.4 0.734498
310.42 0.75637
310.44 0.743045
310.46 0.809207
310.48 0.892899
310.5 0.762135
310.52 0.715363
310.54 0.787553
310.56 0.787625
310.58 0.749949
310.6 0.835596
310.62 0.909678
310.64 1.11469
310.66 0.924342
310.68 0.774636
310.7 0.881208
310.72 0.827465
310.74 0.753476
310.76 0.777604
310.78 0.795661
310.8 0.724999
310.82 0.763437
310.84 0.885359
310.86 0.86019
310.88 0.773739
310.9 0.6328
310.92 0.580655
310.94 0.647031
310.96 0.75934
310.98 0.826389
311 0.794904
311.02 0.791307
311.04 0.771844
311.06 0.693351
311.08 0.800569
311.1 1.12943
311.12 1.05443
311.14 0.972676
311.16 1.40123
311.18 1.22595
311.2 0.794347
311.22 0.666175
311.24 0.678206
311.26 0.911477
311.28 1.2079
311.3 1.25321
311.32 0.894225
311.34 0.699641
311.36 0.641678
311.38 0.656175
311.4 0.718916
311.42 0.882838
311.44 1.09298
311.46 0.947359
311.48 0.959012
311.5 1.30644
311.52 1.30486
311.54 0.99581
311.56 0.980156
311.58 0.88039
311.6 0.795758
311.62 0.80676
311.64 0.854632
311.66 0.786088
311.68 0.69134
311.7 0.788536
311.72 1.16313
311.74 1.68153
311.76 1.57792
311.78 1.2693
311.8 1.20295
311.82 1.06856
311.84 1.00985
311.86 1.22616
311.88 1.14728
311.9 1.04779
311.92 1.30349
311.94 1.56927
311.96 1.38889
311.98 0.94106
312 0.870831
312.02 1.21969
312.04 2.01767
312.06 1.93663
312.08 1.09562
312.1 0.97934
312.12 1.41775
312.14 1.47626
312.16 1.18126
312.18 1.1313
312.2 1.16313
312.22 1.08413
312.24 1.21012
312.26 1.40853
312.28 1.30525
312.3 1.23749
312.32 1.45579
312.34 1.41769
312.36 1.00049
312.38 0.832231
312.4 0.843561
312.42 0.923226
312.44 0.93203
312.46 0.863737
312.48 0.877144
312.5 0.783574
312.52 0.644787
312.54 0.639439
312.56 0.847331
312.58 1.48805
312.6 1.83979
312.62 1.43906
312.64 1.25243
312.66 1.20557
312.68 0.983099
312.7 1.01501
312.72 1.11696
312.74 1.08354
312.76 1.13575
312.78 0.957941
312.8 0.850135
312.82 0.869997
312.84 0.895167
312.86 0.917627
312.88 0.844089
312.9 0.830544
312.92 0.975189
312.94 1.11389
312.96 1.19417
312.98 1.13426
313 1.10788
313.02 1.00769
313.04 0.778256
313.06 0.681403
313.08 0.700028
313.1 0.92314
313.12 1.48097
313.14 1.58111
313.16 1.27778
313.18 1.00999
313.2 0.908229
313.22 0.901539
313.24 0.898277
313.26 0.873133
313.28 1.0304
313.3 1.42007
313.32 1.27189
313.34 1.1518
313.36 0.99493
313.38 0.823368
313.4 0.989405
313.42 1.27953
313.44 1.02164
313.46 0.859211
313.48 1.16369
313.5 2.18424
313.52 2.10388
313.54 1.30817
313.56 0.963663
313.58 0.850488
313.6 0.787897
313.62 0.877031
313.64 1.08987
313.66 1.1107
313.68 0.952798
313.7 0.839999
313.72 0.880557
313.74 1.22084
313.76 1.52451
313.78 1.10269
313.8 0.82819
313.82 0.798438
313.84 0.789322
313.86 0.814245
313.88 0.828732
313.9 0.688846
313.92 0.655461
313.94 0.793165
313.96 0.861732
313.98 0.751126
314 0.688308
314.02 0.656942
314.04 0.706663
314.06 1.0111
314.08 1.19713
314.1 0.909777
314.12 0.839768
314.14 0.827506
314.16 0.829273
314.18 0.807046
314.2 0.805996
314.22 0.764233
314.24 0.708973
314.26 0.726487
314.28 0.822984
314.3 0.864697
314.32 0.893707
314.34 0.926506
314.36 0.919187
314.38 1.13217
314.4 1.27389
314.42 1.37959
314.44 2.086
314.46 3.54761
314.48 3.95799
314.5 3.72684
314.52 3.39678
314.54 3.01583
314.56 2.25759
314.58 1.6623
314.6 1.52126
314.62 1.46691
314.64 1.43097
314.66 1.34202
314.68 1.13935
314.7 0.936249
314.72 0.938455
314.74 1.0794
314.76 1.09266
314.78 1.06615
314.8 1.26599
314.82 1.37051
314.84 1.28046
314.86 1.13845
314.88 1.02429
314.9 1.05948
314.92 0.965284
314.94 0.797186
314.96 0.727645
314.98 0.746762
315 0.661893
315.02 0.682832
315.04 0.703446
315.06 0.811235
315.08 1.03935
315.1 1.11497
315.12 1.06133
315.14 0.826523
315.16 0.741276
315.18 0.751738
315.2 0.871552
315.22 0.987309
315.24 0.735306
315.26 0.649332
315.28 0.840649
315.3 1.16786
315.32 1.04969
315.34 0.713645
315.36 0.667287
315.38 0.775005
315.4 0.990085
315.42 0.929886
315.44 0.66359
315.46 0.634249
315.48 0.684596
315.5 0.869142
315.52 1.24053
315.54 1.45794
315.56 1.05457
315.58 0.72387
315.6 0.763093
315.62 0.865584
315.64 0.866079
315.66 0.978248
315.68 0.848894
315.7 0.782433
315.72 0.954414
315.74 0.952128
315.76 0.964511
315.78 1.46125
315.8 2.05673
315.82 1.97173
315.84 1.7644
315.86 1.59352
315.88 1.63729
315.9 1.29579
315.92 1.26599
315.94 1.74015
315.96 2.27328
315.98 2.62045
316 1.9302
316.02 1.6416
316.04 1.51911
316.06 1.29176
316.08 1.28469
316.1 1.35708
316.12 1.29921
316.14 1.27005
316.16 1.6377
316.18 1.78509
316.2 1.63717
316.22 1.62073
316.24 1.37348
316.26 1.47442
316.28 1.50457
316.3 0.975301
316.32 0.999634
316.34 1.46764
316.36 1.20599
316.38 0.849608
316.4 0.867086
316.42 0.855758
316.44 0.737617
316.46 0.758115
316.48 1.02047
316.5 1.10742
316.52 1.09837
316.54 1.07217
316.56 1.09607
316.58 1.21196
316.6 1.20002
316.62 0.939819
316.64 0.792686
316.66 0.791571
316.68 1.01788
316.7 1.1633
316.72 1.35863
316.74 1.47661
316.76 1.25034
316.78 0.877707
316.8 0.725267
316.82 0.664634
316.84 0.654872
316.86 0.814552
316.88 1.21073
316.9 1.21879
316.92 1.09785
316.94 1.2896
316.96 1.29763
316.98 1.17449
317 0.995849
317.02 0.952515
317.04 1.00768
317.06 1.00894
317.08 0.85616
317.1 0.747393
317.12 0.836174
317.14 0.832559
317.16 0.722357
317.18 0.645256
317.2 0.647146
317.22 0.717036
317.24 0.714975
317.26 0.749706
317.28 0.836837
317.3 0.903177
317.32 0.741462
317.34 0.65317
317.36 0.636057
317.38 0.685378
317.4 0.759578
317.42 0.870562
317.44 1.0444
317.46 0.934664
317.48 0.67983
317.5 0.678663
317.52 0.77728
317.54 0.88055
317.56 0.962256
317.58 1.01742
317.6 0.987547
317.62 1.09239
317.64 1.025
317.66 0.691831
317.68 0.660176
317.7 0.749012
317.72 0.884937
317.74 0.798198
317.76 0.631374
317.78 0.599107
317.8 0.657395
317.82 0.814497
317.84 1.00235
317.86 1.13245
317.88 1.18897
317.9 1.19696
317.92 1.024
317.94 1.09898
317.96 1.09974
317.98 1.20366
318 1.72985
318.02 2.74735
318.04 2.40789
318.06 1.48667
318.08 1.40911
318.1 1.63847
318.12 1.55588
318.14 1.32944
318.16 1.38165
318.18 1.18775
318.2 1.1968
318.22 1.80615
318.24 2.18032
318.26 1.95906
318.28 1.85341
318.3 1.54092
318.32 1.21569
318.34 1.01754
318.36 0.983617
318.38 1.38336
318.4 1.97124
318.42 1.79064
318.44 1.32465
318.46 0.863998
318.48 0.899195
318.5 1.26467
318.52 1.2558
318.54 1.12595
318.56 1.08019
318.58 1.23235
318.6 1.20276
318.62 1.137
318.64 0.95212
318.66 0.740303
318.68 0.730135
318.7 0.854688
318.72 0.995143
318.74 1.11078
318.76 1.19496
318.78 1.11763
318.8 0.883394
318.82 0.792904
318.84 0.837585
318.86 0.908259
318.88 0.804057
318.9 0.824192
318.92 0.952417
318.94 1.20051
318.96 1.02417
318.98 0.752081
319 0.561626
319.02 0.535181
319.04 0.545206
319.06 0.589477
319.08 0.731428
319.1 0.915194
319.12 0.788552
319.14 0.76807
319.16 1.14667
319.18 1.44322
319.2 1.09591
319.22 0.929217
319.24 0.972614
319.26 1.24543
319.28 1.53715
319.3 1.66534
319.32 1.67181
319.34 1.74169
319.36 2.01469
319.38 2.18131
319.4 1.87644
319.42 1.4854
319.44 1.00349
319.46 1.06461
319.48 1.24131
319.5 1.04308
319.52 1.04777
319.54 1.23568
319.56 1.06349
319.58 1.00877
319.6 1.16239
319.62 1.01157
319.64 0.944673
319.66 1.047
319.68 1.0833
319.7 1.33512
319.72 1.09657
319.74 0.89692
319.76 1.0111
319.78 1.64363
319.8 1.92868
319.82 1.09677
319.84 1.01149
319.86 0.98312
319.88 0.794499
319.9 0.808545
319.92 0.785645
319.94 0.744977
319.96 0.671361
319.98 0.621588
320 0.690316
320.02 0.887238
320.04 1.17915
320.06 1.05295
320.08 0.941666
320.1 1.06263
320.12 1.56088
320.14 1.55307
320.16 1.03361
320.18 0.969928
320.2 0.869984
320.22 0.772899
320.24 0.774958
320.26 0.723605
320.28 0.683974
320.3 0.785849
320.32 1.03014
320.34 1.44958
320.36 1.47476
320.38 1.01352
320.4 0.721862
320.42 0.782761
320.44 0.906692
320.46 0.799503
320.48 0.807428
320.5 0.777741
320.52 0.738515
320.54 0.645169
320.56 0.590799
320.58 0.702084
320.6 0.970572
320.62 1.32593
320.64 1.14181
320.66 0.866992
320.68 0.811116
320.7 0.768616
320.72 0.711524
320.74 0.660391
320.76 0.712179
320.78 0.894566
320.8 0.9204
320.82 0.802949
320.84 0.794048
320.86 0.790832
320.88 0.744423
320.9 0.79861
320.92 0.982325
320.94 1.36472
320.96 1.2163
320.98 0.958005
321 1.20363