File: data_bases/Ref/sol.txt
# Solar Atlas
# Source: Chance, K. and Kurucz, R. L. Journal of Quantitative Spectroscopy and Radiative Transfer, 111, 1289â€“1295, https://doi.org/10.1016/j.jqsrt.2010.01.036, 2010.
# Interpolated by cublic spline
# Wavelength (nm),       Intensity (Photons s-1 cm-2 nm-1)
302 3877.78
302.02 6176.26
302.04 8538.43
302.06 7970.99
302.08 5607.38
302.1 4016.56
302.12 2952.09
302.14 1782.51
302.16 1473.31
302.18 1724.07
302.2 2009.18
302.22 2907.91
302.24 4121.04
302.26 6327.41
302.28 8949.57
302.3 10249.7
302.32 10667.5
302.34 11321.8
302.36 12426.8
302.38 14080.5
302.4 15091
302.42 15908.2
302.44 15315.2
302.46 12354.5
302.48 7899.56
302.5 6394.25
302.52 8832.14
302.54 12400.4
302.56 13232.4
302.58 12490.1
302.6 11836.5
302.62 9741.9
302.64 6666.45
302.66 3733.62
302.68 3825.51
302.7 6041.5
302.72 6280.89
302.74 6418.36
302.76 9913.83
302.78 13727.3
302.8 17473.8
302.82 19783.2
302.84 19070
302.86 17273.2
302.88 15094.2
302.9 14423.4
302.92 16967.1
302.94 17619.7
302.96 16068.6
302.98 12935.6
303 9318.97
303.02 10172.8
303.04 13612.7
303.06 13482.6
303.08 11702.5
303.1 9459.13
303.12 12001.1
303.14 15475.6
303.16 14979.5
303.18 11880.9
303.2 8048.44
303.22 6103.44
303.24 5758.69
303.26 6854.9
303.28 12247.5
303.3 18343.3
303.32 19953.2
303.34 19604.2
303.36 18024
303.38 14874.7
303.4 15246.1
303.42 15237.4
303.44 14216.9
303.46 15172.4
303.48 15271.8
303.5 14218.1
303.52 12433.6
303.54 10707
303.56 13527.9
303.58 16821.6
303.6 17620.3
303.62 16935.2
303.64 16553.3
303.66 15073.7
303.68 15689
303.7 16218.5
303.72 15468.7
303.74 15019.8
303.76 13264.5
303.78 9283.28
303.8 5072.55
303.82 2917.04
303.84 2954.72
303.86 3549.16
303.88 4179.52
303.9 7114.41
303.92 10862.2
303.94 13262.1
303.96 13736.4
303.98 13284.9
304 13381.7
304.02 14020.4
304.04 12819
304.06 12390.3
304.08 15906.7
304.1 16120.7
304.12 10535.1
304.14 7541.5
304.16 8337.52
304.18 8905.74
304.2 12716.3
304.22 13807.7
304.24 9645.98
304.26 5431.15
304.28 5140.22
304.3 8135.99
304.32 10466.2
304.34 8122.91
304.36 6867.7
304.38 11502.2
304.4 15699.3
304.42 16430.1
304.44 16279.8
304.46 15154.3
304.48 11731.5
304.5 11728.7
304.52 15075.9
304.54 16039.6
304.56 14768.2
304.58 11275.5
304.6 12069
304.62 16273.4
304.64 15269.8
304.66 14071
304.68 15915.6
304.7 17909
304.72 18221.6
304.74 14912.1
304.76 10408.9
304.78 8060.59
304.8 6784.28
304.82 5130.23
304.84 3011.34
304.86 3023.39
304.88 5513.97
304.9 8100.71
304.92 9379.28
304.94 10634.9
304.96 11267.3
304.98 11517.9
305 14193.1
305.02 14677.5
305.04 15175.1
305.06 17317.5
305.08 16200.4
305.1 13148
305.12 12576.2
305.14 9970.31
305.16 5709.47
305.18 5868.62
305.2 11200
305.22 15730
305.24 18367.5
305.26 20198.9
305.28 20589.2
305.3 19138.7
305.32 17582.3
305.34 17638.2
305.36 18340.1
305.38 16725.4
305.4 14488.9
305.42 12378.6
305.44 10423
305.46 9426.32
305.48 9794.43
305.5 9719.85
305.52 7679.27
305.54 9473.06
305.56 11669.7
305.58 12962.2
305.6 11577.7
305.62 10164.2
305.64 12728.7
305.66 14544.3
305.68 16510.7
305.7 14949.2
305.72 12975.3
305.74 12514.9
305.76 10474.8
305.78 9654.67
305.8 7365.62
305.82 3931.06
305.84 2390.61
305.86 3257
305.88 5110.68
305.9 7370.03
305.92 8933.92
305.94 7988.15
305.96 6316.22
305.98 4057.88
306 2845.24
306.02 4070.87
306.04 6495.57
306.06 9157.3
306.08 11468.4
306.1 12648.9
306.12 11800.2
306.14 9520.59
306.16 9985.1
306.18 12287.9
306.2 15289.7
306.22 17722.7
306.24 16870.7
306.26 14665.5
306.28 13216.9
306.3 11561.5
306.32 12840.7
306.34 16596
306.36 15976.6
306.38 14451.3
306.4 13361.8
306.42 11876.3
306.44 10623.5
306.46 9458.48
306.48 8691.43
306.5 8457.12
306.52 8943.02
306.54 9017.19
306.56 8378.55
306.58 9120.91
306.6 11095
306.62 14009.7
306.64 16535
306.66 16889.7
306.68 12816.5
306.7 6891.73
306.72 4385.67
306.74 7285.64
306.76 11017
306.78 9136.55
306.8 4747.4
306.82 4236.58
306.84 6818.66
306.86 8610.26
306.88 10047.7
306.9 10520.9
306.92 10872.5
306.94 10861
306.96 10939
306.98 14807.7
307 16027.9
307.02 13358.9
307.04 13475.3
307.06 15843.7
307.08 16269.7
307.1 14589.4
307.12 11878.3
307.14 12391.3
307.16 14773.5
307.18 15809.4
307.2 13438.1
307.22 13393.3
307.24 15623.3
307.26 15278.8
307.28 11671.7
307.3 6688.08
307.32 7230.66
307.34 12416.7
307.36 15044.2
307.38 10690.6
307.4 9730.8
307.42 15636.9
307.44 18919
307.46 16998.3
307.48 12800.1
307.5 10094.3
307.52 11564.6
307.54 14850.7
307.56 17281.6
307.58 15205.4
307.6 8940.22
307.62 5259.69
307.64 4939.46
307.66 4519.41
307.68 7529.56
307.7 13430.2
307.72 16693.5
307.74 17958.7
307.76 16863.1
307.78 14598.2
307.8 13837.3
307.82 15941.4
307.84 14823.8
307.86 11647
307.88 11646.7
307.9 11494.3
307.92 9337.78
307.94 6058.1
307.96 7550.18
307.98 14180.3
308 19041.5
308.02 18141.9
308.04 16743.5
308.06 16445.6
308.08 13910
308.1 12401.3
308.12 15153.7
308.14 15842.3
308.16 12752.1
308.18 12946.6
308.2 14212
308.22 11983.7
308.24 9362.62
308.26 7976.83
308.28 7814.37
308.3 6376.23
308.32 8661.19
308.34 11761
308.36 13811.1
308.38 14242.8
308.4 10761.7
308.42 9124.68
308.44 8355.83
308.46 6687.69
308.48 9834.96
308.5 15575.5
308.52 18815.6
308.54 20175.6
308.56 20528
308.58 17756.9
308.6 14449.8
308.62 13284.9
308.64 15650.2
308.66 17403.9
308.68 19107.6
308.7 17886.6
308.72 14452.3
308.74 11353.3
308.76 10576.9
308.78 11366.9
308.8 12485.4
308.82 12400.6
308.84 12040.3
308.86 11094.5
308.88 7194.99
308.9 6353.44
308.92 10695.9
308.94 14461
308.96 13933.1
308.98 14508.4
309 16664.7
309.02 14999.3
309.04 9742.65
309.06 7860.36
309.08 11304.8
309.1 13364.8
309.12 11211.9
309.14 12621.7
309.16 13431.2
309.18 9198.8
309.2 5777.18
309.22 5950.94
309.24 6147.42
309.26 8261.47
309.28 12263
309.3 13971.9
309.32 11486.8
309.34 6531.31
309.36 3008.26
309.38 1895.6
309.4 3141.2
309.42 5978.87
309.44 8248.6
309.46 8466.19
309.48 8626.23
309.5 9518.04
309.52 10148.3
309.54 13083.7
309.56 14954.1
309.58 14790
309.6 13600.2
309.62 12537.5
309.64 15719.4
309.66 16888.6
309.68 13416.6
309.7 9328.52
309.72 7987.45
309.74 7343.14
309.76 5342.55
309.78 3517.89
309.8 4441.83
309.82 7824.02
309.84 10489.3
309.86 11089
309.88 10856.2
309.9 10849.5
309.92 13550.8
309.94 13789.8
309.96 12441.6
309.98 11931.3
310 10397.8
310.02 10137.4
310.04 9011.77
310.06 6713.11
310.08 4125.39
310.1 3412.73
310.12 3858.09
310.14 4226.93
310.16 4249.98
310.18 6054.76
310.2 8651.45
310.22 7863.77
310.24 4932.57
310.26 3979.6
310.28 5051.03
310.3 6388.13
310.32 7774.11
310.34 11458
310.36 12652.4
310.38 13345.5
310.4 16007.6
310.42 15730.3
310.44 16238
310.46 14911.7
310.48 13402.9
310.5 15525.9
310.52 16336.3
310.54 15261.2
310.56 15482.1
310.58 15554.1
310.6 13857.8
310.62 13162.9
310.64 11172.6
310.66 13609.6
310.68 15625.6
310.7 13444.5
310.72 14280.4
310.74 15792.5
310.76 16117
310.78 16304.6
310.8 17552.9
310.82 16062.4
310.84 13607.9
310.86 14526.2
310.88 16655.2
310.9 19996.8
310.92 21985.9
310.94 20060.3
310.96 17107.9
310.98 15881.3
311 16553.1
311.02 16609.3
311.04 16966.8
311.06 18759.3
311.08 16853.4
311.1 12361.4
311.12 12977.3
311.14 13813
311.16 9625.75
311.18 11177.1
311.2 17406.1
311.22 20678.2
311.24 20627.1
311.26 15598.1
311.28 11389.1
311.3 10891.8
311.32 15729.7
311.34 20349.3
311.36 21857.2
311.38 21437.2
311.4 19969.7
311.42 16071.4
311.44 12494.3
311.46 14568.8
311.48 15331.2
311.5 11383.1
311.52 10809.3
311.54 13821.6
311.56 14339.5
311.58 16121.6
311.6 18110.4
311.62 18101.4
311.64 17176.7
311.66 18277.7
311.68 20148.3
311.7 18195.6
311.72 12857.3
311.74 8577.24
311.76 8739.16
311.78 11133.7
311.8 12429.7
311.82 14358.4
311.84 14627.1
311.86 11513.6
311.88 12176.3
311.9 13409.3
311.92 11120.8
311.94 9789.08
311.96 11066.6
311.98 15332.9
312 15755.3
312.02 11503
312.04 7285.4
312.06 7592.59
312.08 13106.1
312.1 14744
312.12 10188
312.14 9699.68
312.16 12136.9
312.18 12613.5
312.2 12039.9
312.22 12491.6
312.24 11452.8
312.26 10402.5
312.28 11163.5
312.3 11103.6
312.32 9097.59
312.34 9473.2
312.36 13804.8
312.38 16378.5
312.4 16161.8
312.42 14924.3
312.44 14457.8
312.46 15315.7
312.48 15162.9
312.5 17197.8
312.52 20727.4
312.54 20426.4
312.56 15771.8
312.58 9149.14
312.6 7121.95
312.62 9012.33
312.64 10602.3
312.66 11284.3
312.68 13619.7
312.7 12775.9
312.72 11771.8
312.74 12277.6
312.76 11485.4
312.78 13908.4
312.8 16156.7
312.82 15424.9
312.84 14353.4
312.86 14104.2
312.88 16161.7
312.9 16405.4
312.92 13255.6
312.94 11587.4
312.96 11358.5
312.98 12170.3
313 12224.9
313.02 13245.5
313.04 17082
313.06 19161.7
313.08 18832.7
313.1 15177.9
313.12 9635.29
313.14 8638.54
313.16 10244.1
313.18 13150.5
313.2 15336.7
313.22 15581.6
313.24 15248.5
313.26 15769.9
313.28 13354.4
313.3 9703.21
313.32 11078.3
313.34 12358
313.36 14041.2
313.38 16498.2
313.4 13666.7
313.42 10995.2
313.44 14233
313.46 16647.5
313.48 11887.3
313.5 6253.17
313.52 6577.51
313.54 10725.4
313.56 14629.2
313.58 16423.3
313.6 17499.1
313.62 15649.1
313.64 12705.8
313.66 12568
313.68 14543.8
313.7 16158.1
313.72 15367.1
313.74 11094.8
313.76 8793.64
313.78 12036.4
313.8 16300.5
313.82 17154.9
313.84 17085.5
313.86 16167.6
313.88 15733
313.9 18754.8
313.92 19868
313.94 16640.4
313.96 15595.6
313.98 17812.7
314 18544.2
314.02 19220.2
314.04 18707.9
314.06 13186.5
314.08 10879.2
314.1 14172.3
314.12 15443
314.14 15945.5
314.16 16209.3
314.18 16789.8
314.2 16707.6
314.22 16961.5
314.24 18015.4
314.26 18520.7
314.28 17445.6
314.3 16502.5
314.32 15225
314.34 14417.9
314.36 14836
314.38 12376.3
314.4 11372.6
314.42 10591
314.44 6902.32
314.46 3953.56
314.48 3524.84
314.5 3904
314.52 4426.05
314.54 4839.78
314.56 6255.88
314.58 8529.71
314.6 9501.82
314.62 10089.1
314.64 10223.1
314.66 10643
314.68 12330
314.7 14750.2
314.72 14778
314.74 13356.3
314.76 13198.9
314.78 13058.5
314.8 10424.6
314.82 9527.34
314.84 10629.4
314.86 12235.6
314.88 13269.3
314.9 12447.7
314.92 13211.5
314.94 15834.2
314.96 17643.6
314.98 17752.4
315 20073.6
315.02 18623.1
315.04 17191.1
315.06 14994.7
315.08 12170
315.1 11382.7
315.12 11591.2
315.14 14776.6
315.16 16545.3
315.18 16170.1
315.2 14077
315.22 12428.2
315.24 16504.7
315.26 18476.4
315.28 13960.7
315.3 10336.8
315.32 11927.3
315.34 16929.2
315.36 17886.4
315.38 15425.6
315.4 11950.6
315.42 12849.8
315.44 18210.1
315.46 19356.8
315.48 18173.9
315.5 13854.9
315.52 9659.46
315.54 8345.53
315.56 11364.1
315.58 16615.7
315.6 16441.6
315.62 14888.4
315.64 14637.3
315.66 12267.4
315.68 14129.6
315.7 16337.7
315.72 13639.7
315.74 13528.9
315.76 13376.9
315.78 8741.48
315.8 6082.98
315.82 6458.26
315.84 7564.9
315.86 8573.16
315.88 7990.3
315.9 9684.45
315.92 10241.6
315.94 7929.89
315.96 6033.96
315.98 4970.55
316 6645.18
316.02 7991.04
316.04 8710.3
316.06 10522.8
316.08 10741.7
316.1 9865.31
316.12 9860.73
316.14 9786.1
316.16 7888
316.18 7776.65
316.2 8328.73
316.22 7952.48
316.24 9273.06
316.26 8619.01
316.28 8548.41
316.3 13362.6
316.32 12955.2
316.34 8813.02
316.36 10532.7
316.38 14670.9
316.4 14873.8
316.42 15372.3
316.44 17363.2
316.46 16289.9
316.48 12106.7
316.5 11547.1
316.52 11839.4
316.54 11926.8
316.56 11770.9
316.58 10706.5
316.6 10516.4
316.62 13240.8
316.64 16290.4
316.66 16877.2
316.68 12966.4
316.7 10917.6
316.72 9464.81
316.74 9032.22
316.76 10614.4
316.78 14778.2
316.8 18251.4
316.82 20433.3
316.84 20302.7
316.86 15926.1
316.88 11007.3
316.9 11412.1
316.92 12612.7
316.94 10326.1
316.96 10174.4
316.98 11647.8
317 13660.5
317.02 14014
317.04 13576.5
317.06 13881.2
317.08 16079.7
317.1 18088.2
317.12 16098.2
317.14 16485.9
317.16 19003.8
317.18 20752.2
317.2 20855
317.22 19411.4
317.24 19189.4
317.26 18175.4
317.28 16383.7
317.3 15226.7
317.32 18185.3
317.34 20502.6
317.36 21460.1
317.38 20508.1
317.4 18339.7
317.42 15752.5
317.44 13095.9
317.46 14853.4
317.48 20262.6
317.5 20246.9
317.52 18002.7
317.54 15956.7
317.56 14245.7
317.58 13683.8
317.6 14409.4
317.62 13053.6
317.64 13619.6
317.66 19718.4
317.68 21250.4
317.7 19227.4
317.72 15944.9
317.74 17844.6
317.76 23065.2
317.78 23962.9
317.8 21668.9
317.82 17559.6
317.84 14528.9
317.86 13142.5
317.88 12159.3
317.9 11911.2
317.92 14645.6
317.94 13986.2
317.96 13873.3
317.98 12466.9
318 8423.48
318.02 5339.83
318.04 6316.05
318.06 10372.4
318.08 11138.9
318.1 9511.3
318.12 9674.61
318.14 11160.5
318.16 10886.9
318.18 12951.4
318.2 13042.6
318.22 8410.1
318.24 6813.58
318.26 7743.08
318.28 8347.82
318.3 9878.46
318.32 12108.5
318.34 14276.9
318.36 14970.5
318.38 10706.7
318.4 7536.97
318.42 8318.15
318.44 11195.3
318.46 16685.8
318.48 15466.1
318.5 11004.4
318.52 11452.4
318.54 12669.7
318.56 12949.5
318.58 11343.5
318.6 11610.7
318.62 12257
318.64 14355.8
318.66 17981
318.68 18464.5
318.7 15716.1
318.72 13520
318.74 12315.1
318.76 11224.9
318.78 11719.1
318.8 14913.2
318.82 16641
318.84 15869.9
318.86 14405.1
318.88 16001.7
318.9 15904.7
318.92 13764
318.94 10944.9
318.96 13113.7
318.98 17629.3
319 23056.5
319.02 24141.8
319.04 24154.9
319.06 23187.6
319.08 18572.3
319.1 14480
319.12 17309.3
319.14 18228
319.16 12099.2
319.18 9549.41
319.2 12707.9
319.22 15127
319.24 14553.4
319.26 11587.2
319.28 9664.9
319.3 8975.36
319.32 8836.4
319.34 8327.83
319.36 7284.81
319.38 6887.78
319.4 7995.92
319.42 10080.9
319.44 15236.1
319.46 14379.4
319.48 12411.4
319.5 14868.7
319.52 14560.9
319.54 12083.5
319.56 14127.6
319.58 15055.9
319.6 13438.2
319.62 15574.5
319.64 16536.5
319.66 14701.5
319.68 13952.9
319.7 11256.3
319.72 13997.1
319.74 17263.2
319.76 15329.1
319.78 9408.43
319.8 7988.15
319.82 14061.2
319.84 15165.9
319.86 15274.3
319.88 19135.9
319.9 19002.4
319.92 19263.5
319.94 20826
319.96 23414
319.98 24700.4
320 22157.3
320.02 17235.7
320.04 12809.6
320.06 14437.9
320.08 16188.9
320.1 14721.1
320.12 10314.7
320.14 10093
320.16 14378.9
320.18 15599.5
320.2 17853.1
320.22 20172.9
320.24 20063.3
320.26 21973.8
320.28 23237.3
320.3 19635.2
320.32 14455
320.34 10573.2
320.36 10869.8
320.38 15574.8
320.4 20452.1
320.42 19377.7
320.44 17706
320.46 19985.9
320.48 19080.3
320.5 19404.3
320.52 20484.5
320.54 23897
320.56 25764.8
320.58 22337.8
320.6 16882.2
320.62 11737.2
320.64 12527.6
320.66 17093.4
320.68 19505.9
320.7 21016.8
320.72 22049.2
320.74 22974.4
320.76 21672.6
320.78 17561.8
320.8 16562.3
320.82 19337.8
320.84 20511.3
320.86 20296.5
320.88 20610.8
320.9 19345.3
320.92 16376.6
320.94 12013.3
320.96 13182.7
320.98 16353.6
321 13345.3